{
  "resourceType": "Bundle",
  "id": "bundleLab",
  "type": "batch",
  "entry": [
    {
      "resource": {
        "resourceType": "Patient",
        "id": "patient1",
        "meta": {
          "profile": [
            "http://hl7.org.nz/healthalliance/StructureDefinition/HaPatient"
          ]
        },
        "name": [
          {
            "extension": [
              {
                "url": "http://hl7.org/fhir/StructureDefinition/iso21090-preferred",
                "valueBoolean": true
              }
            ],
            "family": "Doe",
            "given": [
              "John",
              "Albertus"
            ]
          }
        ],
        "address": [
          {
            "extension": [
              {
                "url": "http://hl7.org.nz/fhir/StructureDefinition/suburb",
                "valueString": "Waipu river"
              }
            ],
            "line": [
              "23 Thule St"
            ],
            "city": "Waipu"
          }
        ],
        "contained": [
          {
            "resourceType": "Practitioner",
            "id": "prac1",
            "name": [
              {
                "text": "Dr  Welby"
              }
            ],
            "identifier": [
              {
                "system": "https://standards.digital.health.nz/id/hpi-person",
                "value": "welby1"
              }
            ]
          }
        ],
        "text": {
          "div": "<div xmlns=\"http://www.w3.org/1999/xhtml\">John Doe</div>",
          "status": "additional"
        },
        "identifier": [
          {
            "use": "official",
            "system": "https://standards.digital.health.nz/id/nhi",
            "value": "WER4568"
          }
        ],
        "deceasedBoolean": false,
        "gender": "male",
        "birthDate": "1989-12-12",
        "telecom": [
          {
            "system": "email",
            "value": "johndoe@erewhon.com"
          },
          {
            "system": "phone",
            "value": "+64 9 000 0000"
          }
        ],
        "managingOrganization": {
          "reference": "Organization/cmdhb"
        },
        "generalPractitioner": [
          {
            "reference": "#prac1"
          }
        ]
      },
      "fullUrl": "http://example.com/fhir/Patient/patient1"
    },
    {
      "resource": {
        "resourceType": "DiagnosticReport",
        "id": "fbc-externalobs",
        "meta": {
          "profile": [
            "http://hl7.org.nz/healthalliance/StructureDefinition/HaDiagnosticReport"
          ]
        },
        "status": "final",
        "identifier": [
          {
            "system": "http://sysmex.org",
            "value": "100"
          }
        ],
        "code": {
          "coding": [
            {
              "code": "58410-2",
              "system": "http://loinc.org"
            }
          ]
        },
        "performer": [
          {
            "reference": "Organization/sysmex"
          }
        ],
        "subject": {
          "reference": "Patient/patient1"
        },
        "effectiveDateTime": "2020-04-10T12:00:00Z",
        "result": [
          {
            "reference": "Observation/hb"
          },
          {
            "reference": "Observation/ery"
          }
        ]
      },
      "fullUrl": "http://example.com/fhir/DiagnosticReport/fbc-exterrnalobs"
    },
    {
      "resource": {
        "resourceType": "Organization",
        "id": "sysmex",
        "meta": {
          "profile": [
            "http://hl7.org.nz/healthalliance/StructureDefinition/HaOrganization"
          ]
        },
        "name": "Sysmex laboratories",
        "identifier": [
          {
            "system": "https://standards.digital.health.nz/id/hpi-organisation",
            "value": "sysmex-1"
          }
        ]
      },
      "fullUrl": "http://example.com/fhir/Organization/sysmex"
    },
    {
      "resource": {
        "resourceType": "Observation",
        "id": "hb",
        "status": "final",
        "subject": {
          "reference": "Patient/patient1"
        },
        "performer": [
          {
            "reference": "Organization/sysmex"
          }
        ],
        "code": {
          "coding": [
            {
              "code": "718-7",
              "system": "http://loinc.org"
            }
          ]
        },
        "valueQuantity": {
          "value": 176,
          "unit": "g/L",
          "system": "http://unitsofmeasure.org",
          "code": "g/L"
        },
        "referenceRange": [
          {
            "low": {
              "value": 135,
              "unit": "g/L",
              "system": "http://unitsofmeasure.org",
              "code": "g/L"
            },
            "high": {
              "value": 180,
              "unit": "g/L",
              "system": "http://unitsofmeasure.org",
              "code": "g/L"
            }
          }
        ],
        "interpretation": [
          {
            "coding": [
              {
                "code": "N",
                "system": "http://terminology.hl7.org/CodeSystem/v3-ObservationInterpretation"
              }
            ]
          }
        ]
      },
      "fullUrl": "http://example.com/fhir/Observation/hb"
    },
    {
      "resource": {
        "resourceType": "Observation",
        "id": "ery",
        "status": "final",
        "subject": {
          "reference": "Patient/patient1"
        },
        "performer": [
          {
            "reference": "Organization/sysmex"
          }
        ],
        "code": {
          "coding": [
            {
              "code": "789-8",
              "system": "http://loinc.org"
            }
          ]
        },
        "valueQuantity": {
          "value": 5.9,
          "unit": "x10*12/L",
          "system": "http://unitsofmeasure.org",
          "code": "10*12/L"
        },
        "referenceRange": [
          {
            "low": {
              "value": 4.2,
              "unit": "x10*12/L",
              "system": "http://unitsofmeasure.org",
              "code": "10*12/L"
            },
            "high": {
              "value": 6,
              "unit": "x10*12/L",
              "system": "http://unitsofmeasure.org",
              "code": "10*12/L"
            }
          }
        ],
        "interpretation": [
          {
            "coding": [
              {
                "code": "N",
                "system": "http://terminology.hl7.org/CodeSystem/v3-ObservationInterpretation"
              }
            ]
          }
        ]
      },
      "fullUrl": "http://example.com/fhir/Observation/ery"
    }
  ]
}
